Folder: Cauchy/Data/KMK249/pXRD

Note: README.md
# Cauchy_Single
Jupyter Notebook for the fitting of magnetization curves to a single Cauchy distribution

File: KMK249.xy
'Id: "" Comment: "Integrate frame JR_1111_03_0001.sfrmwith cursor Slice Cursor #2" Operator: "Artemisserver" Anode: "Mo" Scantype: "TwoTheta" TimePerStep: "240"
7.61 0
7.76 2.08528
7.91 5.65919
8.06 8.32553
8.21 15.158
8.36 21.8438
8.51 25.8052
8.66 21.2096
8.81 17.47
8.96 16.4449
9.11 16.0425
9.26 15.1291
9.41 15.0322
9.56 14.3364
9.71 12.8935
9.86 11.5651
10.01 9.24047
10.16 7.80821
10.31 6.0736
10.46 4.77961
10.61 5.35425
10.76 6.74951
10.91 8.18998
11.06 7.18752
11.21 3.94093
11.36 2.03344
11.51 0.408577
11.66 0.69873
11.81 3.81556
11.96 3.78861
12.11 4.41342
12.26 2.13349
12.41 0.890439
12.56 0.245404
12.71 -0.0273883
12.86 1.10493
13.01 0.772564
13.16 2.20663
13.31 4.80642
13.46 18.5827
13.61 53.9667
13.76 91.8238
13.91 94.256
14.06 59.9229
14.21 25.4167
14.36 9.4604
14.51 6.5027
14.66 4.47781
14.81 3.19268
14.96 3.75696
15.11 5.39213
15.26 6.9773
15.41 10.8486
15.56 15.8298
15.71 25.3788
15.86 70.8322
16.01 175.688
16.16 282.699
16.31 289.542
16.46 193.353
16.61 90.5077
16.76 44.2342
16.91 30.9129
17.06 21.4144
17.21 11.0904
17.36 4.57342
17.51 2.3908
17.66 1.80994
17.81 0.859524
17.96 0.358214
18.11 0.362745
18.26 -0.0962888
18.41 0.575184
18.56 0.734211
18.71 0.563656
18.86 1.14471
19.01 3.14733
19.16 6.35444
19.31 19.3505
19.46 42.6342
19.61 57.0176
19.76 48.7014
19.91 25.8385
20.06 11.1188
20.21 5.52013
20.36 4.07359
20.51 2.03406
20.66 1.01486
20.81 0.422514
20.96 0.196536
21.11 -0.184389
21.26 0.681393
21.41 0.913368
21.56 0.188847
21.71 0.209968
21.86 0.331293
22.01 -0.110176
22.16 0.862749
22.31 1.12708
22.46 2.09045
22.61 2.20922
22.76 1.25116
22.91 0.255307
23.06 -0.076934
23.21 0.125065
23.36 0.427342
23.51 1.92251
23.66 5.57645
23.81 17.2976
23.96 29.2189
24.11 34.1069
24.26 26.7806
24.41 14.5042
24.56 7.67981
24.71 6.63725
24.86 7.41466
25.01 9.96342
25.16 23.7111
25.31 54.4293
25.46 91.4702
25.61 99.793
25.76 74.0464
25.91 37.2421
26.06 16.4007
26.21 9.90995
26.36 7.88234
26.51 7.18707
26.66 6.26914
26.81 6.99865
26.96 8.37964
27.11 9.12389
27.26 11.0091
27.41 21.4601
27.56 56.5273
27.71 108.47
27.86 140.606
28.01 123.637
28.16 75.7307
28.31 36.7166
28.46 17.7294
28.61 11.7195
28.76 8.58708
28.91 5.97932
29.06 4.35906
29.21 3.01963
29.36 2.46375
29.51 1.0424
29.66 0.496393
29.81 -0.0312633
29.96 1.09203
30.11 0.738591
30.26 1.32408
30.41 1.39943
30.56 0.598062
30.71 1.88231
30.86 3.66805
31.01 7.77286
31.16 12.041
31.31 12.253
31.46 9.33789
31.61 6.14129
31.76 4.09912
31.91 4.79114
32.06 10.0504
32.21 18.574
32.36 27.3952
32.51 29.3426
32.66 25.2826
32.81 16.1052
32.96 10.2916
33.11 5.26392
33.26 1.88609
33.41 1.5892
33.56 0.329439
33.71 -0.0153325
33.86 0.429
34.01 1.42185
34.16 4.16905
34.31 6.02992
34.46 5.30515
34.61 2.42633
34.76 1.49212
34.91 0.758516
35.06 -0.185908
35.21 -0.0248074
35.36 0.256478
35.51 0.440133
35.66 0.203631
35.81 -0.0719369
35.96 -0.145267
36.11 0.723948
36.26 0.485643
36.41 1.59124
36.56 1.90338
36.71 3.50136
36.86 6.49498
37.01 11.5346
37.16 12.7206
37.31 11.9399
37.46 9.03387
37.61 7.5505
37.76 12.0966
37.91 23.1182
38.06 35.3771
38.21 38.2945
38.36 30.219
38.51 18.7724
38.66 9.19002
38.81 4.89073
38.96 4.13119
39.11 3.82669
39.26 3.58245
39.41 5.29233
39.56 8.78311
39.71 13.2715
39.86 14.1025
40.01 12.5961
40.16 8.43965
40.31 5.31301
40.46 2.39022
40.61 2.30117
40.76 1.28525
40.91 0.72529
41.06 0.624278
41.21 0.0398527
41.36 0.405758
41.51 0.380516
41.66 0.113425
41.81 0.638369
41.96 1.22245
42.11 3.22981
42.26 4.31305
42.41 5.83766
42.56 4.68424
42.71 4.79257
42.86 6.69581
43.01 11.6706
43.16 16.5884
43.31 18.8866
43.46 16.3015
43.61 11.4401
43.76 6.1521
43.91 2.82661
44.06 1.46901
44.21 1.20438
44.36 1.76719
44.51 2.88145
44.66 4.15797
44.81 4.47044
44.96 3.98912
45.11 2.1557
45.26 1.19306
45.41 0.766867
45.56 0.815628
45.71 -0.055757
45.86 0.516529
46.01 0.853796
46.16 0.370851
46.31 0.596335
46.46 1.06474
46.61 1.21819
46.76 1.5466
46.91 2.813
47.06 2.61442
47.21 2.93053
47.36 3.49719
47.51 5.2151
47.66 7.50134
47.81 9.61059
47.96 9.65526
48.11 8.34084
48.26 5.55394
48.41 3.63857
48.56 2.58737
48.71 2.81913
48.86 5.96198
49.01 11.2104
49.16 15.6583
49.31 17.3914
49.46 16.0664
49.61 10.6076
49.76 6.03177
49.91 2.82389
50.06 1.01182
50.21 0.572711
50.36 0.148734
50.51 0.357603
50.66 0.0166702
50.81 -0.0490591
50.96 0.0801596
51.11 0.946609
51.26 0.588433
51.41 1.08986
51.56 0.754753
51.71 0.0753005
51.86 0.385217
51.96 0