Folder: Cauchy/Data/KMK245/pXRD

Note: README.md
# Cauchy_Single
Jupyter Notebook for the fitting of magnetization curves to a single Cauchy distribution

File: KMK245.xy
'Id: "" Comment: "Integrate frame JR_1045_02_0001.sfrmwith cursor Wedge Cursor #10" Operator: "XRAY" Anode: "Mo" Scantype: "TwoTheta" TimePerStep: "240"
10.09 0
10.225 2.03971
10.36 0.0751689
10.495 1.35031
10.63 0.59118
10.765 3.50044
10.9 5.68223
11.035 6.61923
11.17 3.02817
11.305 1.29116
11.44 -0.235624
11.575 1.35818
11.71 2.47215
11.845 4.72704
11.98 5.34967
12.115 4.46183
12.25 3.413
12.385 1.36014
12.52 0.781607
12.655 0.658032
12.79 0.99918
12.925 1.33277
13.06 2.16174
13.195 2.90184
13.33 5.05131
13.465 11.5659
13.6 38.3757
13.735 84.8702
13.87 89.1455
14.005 45.123
14.14 12.5141
14.275 5.15398
14.41 2.08844
14.545 2.12138
14.68 2.80196
14.815 1.06251
14.95 2.26142
15.085 1.22803
15.22 3.24979
15.355 5.56026
15.49 9.15193
15.625 16.0603
15.76 24.7391
15.895 57.6713
16.03 165.415
16.165 287.287
16.3 254.679
16.435 119.243
16.57 41.3433
16.705 22.3603
16.84 20.4538
16.975 17.2635
17.11 9.71984
17.245 3.43121
17.38 2.06218
17.515 1.45874
17.65 1.23295
17.785 0.795589
17.92 0.504868
18.055 1.41963
18.19 -0.105033
18.325 0.976231
18.46 1.33913
18.595 1.08763
18.73 1.09369
18.865 1.88713
19 2.58006
19.135 5.28059
19.27 12.3675
19.405 30.2602
19.54 54.9604
19.675 49.2925
19.81 22.9265
19.945 7.63398
20.08 4.68644
20.215 2.20073
20.35 1.13117
20.485 0.830055
20.62 0.254147
20.755 1.53513
20.89 -0.000956679
21.025 -0.0645416
21.16 0.507938
21.295 1.57763
21.43 0.526947
21.565 0.826344
21.7 0.630383
21.835 0.666743
21.97 0.329361
22.105 0.378223
22.24 0.751573
22.375 1.59845
22.51 1.11493
22.645 1.32335
22.78 0.527139
22.915 0.456571
23.05 0.798087
23.185 0.583051
23.32 0.67985
23.455 1.38357
23.59 3.11933
23.725 6.74269
23.86 20.2822
23.995 30.0474
24.13 27.434
24.265 15.6797
24.4 6.48317
24.535 4.07777
24.67 3.51495
24.805 4.49828
24.94 6.61224
25.075 10.4374
25.21 23.1936
25.345 60.6047
25.48 93.2886
25.615 82.5225
25.75 41.7466
25.885 15.9076
26.02 6.48362
26.155 3.23559
26.29 2.70683
26.425 2.44724
26.56 2.50724
26.695 3.28085
26.83 4.16265
26.965 5.2584
27.1 6.34877
27.235 8.0043
27.37 10.9177
27.505 27.1588
27.64 78.5094
27.775 129.798
27.91 122.196
28.045 70.5205
28.18 28.4544
28.315 10.7583
28.45 5.71449
28.585 3.85481
28.72 2.83611
28.855 1.99799
28.99 1.83883
29.125 1.53741
29.26 0.70311
29.395 0.965148
29.53 0.175674
29.665 0.0634875
29.8 0.495561
29.935 0.83166
30.07 0.910679
30.205 0.644885
30.34 1.65389
30.475 0.73624
30.61 1.11125
30.745 1.68322
30.88 3.45035
31.015 7.70358
31.15 12.2772
31.285 10.433
31.42 7.16205
31.555 3.62138
31.69 2.74398
31.825 3.04188
31.96 4.11565
32.095 9.82013
32.23 21.1371
32.365 26.8914
32.5 23.7514
32.635 17.5012
32.77 12.9571
32.905 7.45232
33.04 4.39628
33.175 1.6844
33.31 0.832937
33.445 0.381634
33.58 0.400267
33.715 0.202077
33.85 1.00072
33.985 1.99591
34.12 4.26157
34.255 5.81077
34.39 4.32483
34.525 2.43598
34.66 0.881358
34.795 0.579662
34.93 0.580667
35.065 0.550261
35.2 -0.0416758
35.335 0.41079
35.47 0.552682
35.605 0.577331
35.74 0.343272
35.875 0.220517
36.01 0.762142
36.145 0.587504
36.28 0.94754
36.415 1.46818
36.55 1.42204
36.685 2.57362
36.82 5.1647
36.955 9.4445
37.09 12.3961
37.225 10.2326
37.36 6.60431
37.495 5.0215
37.63 5.50576
37.765 9.62934
37.9 22.7398
38.035 34.3289
38.17 33.5424
38.305 22.8139
38.44 12.0269
38.575 4.17321
38.71 2.2674
38.845 1.26533
38.98 1.6563
39.115 2.06608
39.25 1.83802
39.385 3.17068
39.52 7.04853
39.655 12.5573
39.79 12.5293
39.925 9.89102
40.06 5.99042
40.195 3.34209
40.33 1.72722
40.465 1.03966
40.6 0.849393
40.735 0.231428
40.87 0.614167
41.005 -0.0528039
41.14 -0.126307
41.275 0.118062
41.41 0.219561
41.545 0.467317
41.68 0.714195
41.815 0.915271
41.95 1.0415
42.085 3.25628
42.22 5.20642
42.355 5.0384
42.49 4.53946
42.625 3.37955
42.76 3.51654
42.895 6.74563
43.03 14.2555
43.165 17.0405
43.3 15.6733
43.435 12.5157
43.57 7.58694
43.705 3.66777
43.84 2.10149
43.975 1.54374
44.11 0.497221
44.245 0.736173
44.38 1.42796
44.515 3.88084
44.65 4.67853
44.785 4.33864
44.92 3.21359
45.055 1.87488
45.19 1.22003
45.325 0.548864
45.46 0.489786
45.595 0.395371
45.73 -0.0945079
45.865 0.412538
46 0.364511
46.135 0.51227
46.27 0.674658
46.405 0.931509
46.54 0.610187
46.675 1.31781
46.81 1.527
46.945 2.27986
47.08 2.31932
47.215 2.09127
47.35 2.44807
47.485 4.13346
47.62 7.32687
47.755 8.91279
47.89 8.60218
48.025 6.63806
48.16 4.51403
48.295 2.61511
48.43 1.4679
48.565 1.75927
48.7 2.31431
48.835 4.13862
48.97 10.5244
49.105 16.2235
49.24 16.0685
49.375 12.2062
49.51 8.74782
49.645 4.87969
49.78 1.72393
49.915 0.74242
50.05 0.490024
50.185 0.428649
50.32 0.472018
50.455 -0.188754
50.55 0