Folder: Cauchy/Data/KMK273/pXRD

Note: README.md
# Cauchy_Single
Jupyter Notebook for the fitting of magnetization curves to a single Cauchy distribution

File: KMK273.xy
'Id: "" Comment: "Integrate frame JR1110_01_0001.sfrmwith cursor Slice Cursor #1" Operator: "Artemisserver" Anode: "Mo" Scantype: "TwoTheta" TimePerStep: "240"
7.9 0
8.055 4.69056
8.21 9.81754
8.365 15.1999
8.52 17.2388
8.675 16.888
8.83 14.5287
8.985 14.0982
9.14 13.6033
9.295 12.3955
9.45 12.3107
9.605 11.6673
9.76 11.0987
9.915 8.87853
10.07 7.58762
10.225 4.51225
10.38 3.66518
10.535 3.46774
10.69 3.80003
10.845 2.50437
11 2.82853
11.155 2.00272
11.31 0.60974
11.465 0.264865
11.62 0.688058
11.775 0.0825966
11.93 1.0173
12.085 0.853105
12.24 0.703858
12.395 0.340745
12.55 0.892935
12.705 0.505891
12.86 0.405949
13.015 0.979777
13.17 2.79399
13.325 11.4495
13.48 28.3671
13.635 49.0076
13.79 62.8782
13.945 61.0556
14.1 46.0347
14.255 26.7468
14.41 13.654
14.565 6.10708
14.72 4.06835
14.875 4.77413
15.03 5.7038
15.185 7.35182
15.34 9.80546
15.495 13.8303
15.65 31.3876
15.805 72.4103
15.96 128.975
16.115 179.782
16.27 195.985
16.425 169.382
16.58 117.986
16.735 68.513
16.89 36.8319
17.045 20.771
17.2 12.8993
17.355 7.46989
17.51 3.59463
17.665 1.05468
17.82 0.148011
17.975 0.753305
18.13 0.348447
18.285 -0.13461
18.44 0.170794
18.595 0.121316
18.75 1.31196
18.905 2.17027
19.06 5.55894
19.215 13.4822
19.37 24.7502
19.525 33.6635
19.68 36.3704
19.835 30.4096
19.99 18.7207
20.145 9.36199
20.3 4.59481
20.455 2.45743
20.61 1.46696
20.765 0.962668
20.92 0.527406
21.075 0.163756
21.23 0.800294
21.385 -0.0134773
21.54 0.681972
21.695 -0.26476
21.85 0.280901
22.005 0.0352149
22.16 0.387891
22.315 0.33083
22.47 0.0338776
22.625 0.0361722
22.78 0.274796
22.935 0.498933
23.09 0.378054
23.245 0.403339
23.4 1.83241
23.555 4.56361
23.71 11.1254
23.865 17.2066
24.02 22.8393
24.175 22.2436
24.33 18.321
24.485 12.9837
24.64 8.85107
24.795 8.16945
24.95 11.869
25.105 23.8751
25.26 41.5286
25.415 60.2405
25.57 69.2189
25.725 61.9543
25.88 43.6809
26.035 25.9773
26.19 14.2371
26.345 8.50341
26.5 7.83033
26.655 7.22033
26.81 6.91896
26.965 7.07864
27.12 9.07694
27.275 16.8523
27.43 34.7041
27.585 61.3237
27.74 85.4014
27.895 96.2655
28.05 86.0715
28.205 61.9842
28.36 37.7023
28.515 20.3462
28.67 11.7815
28.825 7.40629
28.98 5.41448
29.135 4.21064
29.29 2.30398
29.445 1.50868
29.6 0.773905
29.755 0.128283
29.91 0.267537
30.065 0.225032
30.22 0.560674
30.375 0.439512
30.53 1.03088
30.685 1.56742
30.84 3.70702
30.995 5.77693
31.15 7.34031
31.305 8.79239
31.46 7.00113
31.615 5.60365
31.77 4.56837
31.925 7.27525
32.08 11.1042
32.235 16.31
32.39 20.0733
32.545 20.2757
32.7 18.821
32.855 12.9954
33.01 7.69081
33.165 4.50451
33.32 1.84554
33.475 1.39938
33.63 0.181696
33.785 0.594687
33.94 1.09065
34.095 2.11497
34.25 3.57902
34.405 3.68485
34.56 2.72438
34.715 1.84958
34.87 1.09785
35.025 0.276904
35.18 0.675801
35.335 0.471952
35.49 1.34814
35.645 0.00149787
35.8 0.433267
35.955 0.882413
36.11 1.01933
36.265 0.833164
36.42 0.941644
36.575 2.80806
36.73 4.51909
36.885 7.17496
37.04 9.0185
37.195 9.85991
37.35 9.52621
37.505 9.25676
37.66 11.7507
37.815 16.6035
37.97 23.0233
38.125 26.9532
38.28 25.8418
38.435 20.6913
38.59 14.6634
38.745 8.64687
38.9 5.34532
39.055 3.74399
39.21 4.18503
39.365 4.89383
39.52 7.27749
39.675 9.15365
39.83 10.2921
39.985 9.53573
40.14 7.75961
40.295 5.51025
40.45 2.91061
40.605 1.63685
40.76 1.13689
40.915 0.270442
41.07 0.886692
41.225 0.241307
41.38 -0.238401
41.535 0.0679635
41.69 0.138591
41.845 0.5299
42 1.72236
42.155 2.16817
42.31 3.7767
42.465 4.28582
42.62 4.35912
42.775 6.32751
42.93 8.44178
43.085 10.7229
43.24 13.0011
43.395 13.0313
43.55 10.1186
43.705 7.33895
43.86 5.09216
44.015 1.97074
44.17 1.75002
44.325 1.59516
44.48 1.77194
44.635 2.45827
44.79 3.30912
44.945 3.16215
45.1 2.12178
45.255 1.74162
45.41 1.40156
45.565 0.00581898
45.72 0.136281
45.875 0.214822
46.03 0.223079
46.185 0.415977
46.34 0.504746
46.495 0.574941
46.65 0.67613
46.805 1.6538
46.96 1.30807
47.115 2.25518
47.27 2.50002
47.425 3.92641
47.58 5.51241
47.735 6.80493
47.89 7.30775
48.045 6.19103
48.2 5.16662
48.355 4.37631
48.51 2.72849
48.665 2.88336
48.82 5.11753
48.975 8.55971
49.13 11.1788
49.285 13.2334
49.44 11.3617
49.595 10.1958
49.75 6.86736
49.905 3.63943
50.06 2.15156
50.215 0.525322
50.37 0.264353
50.525 0.21707
50.68 0.121695
50.835 1.11824
50.99 1.20971
51.145 1.45556
51.3 2.20654
51.455 3.20233
51.61 3.72623
51.765 4.31714
51.92 5.30261
52.075 6.46683
52.23 7.28139
52.385 6.21193
52.54 5.79205
52.695 4.52078
52.85 2.98457
53.005 0.808563
53.16 0.748387
53.315 -0.221509
53.36 0