Folder: Cauchy/Data/KMK242/pXRD

Note: README.md
# Cauchy_Single
Jupyter Notebook for the fitting of magnetization curves to a single Cauchy distribution

File: KMK242.xy
'Id: "" Comment: "Integrate frame JR_1112_01_0001.sfrmwith cursor Slice Cursor #3" Operator: "Artemisserver" Anode: "Mo" Scantype: "TwoTheta" TimePerStep: "240"
7.04 0
7.195 0.190295
7.35 0.363255
7.505 0.426117
7.66 1.82928
7.815 2.39461
7.97 4.20683
8.125 5.85368
8.28 14.8033
8.435 24.2395
8.59 21.3747
8.745 11.6086
8.9 8.52364
9.055 8.60438
9.21 7.59479
9.365 8.24488
9.52 6.95076
9.675 6.26078
9.83 5.59825
9.985 4.34455
10.14 3.2754
10.295 2.4458
10.45 1.74914
10.605 3.85788
10.76 7.71849
10.915 11.0175
11.07 8.96427
11.225 3.6368
11.38 1.23263
11.535 0.787164
11.69 2.65682
11.845 7.66195
12 10.2408
12.155 7.6911
12.31 3.27395
12.465 0.189413
12.62 0.731588
12.775 0.055468
12.93 1.2655
13.085 1.16251
13.24 2.94936
13.395 8.50931
13.55 36.9971
13.705 114.111
13.86 149.968
14.015 94.0316
14.17 32.3136
14.325 13.4559
14.48 9.73464
14.635 7.70437
14.79 6.44789
14.945 4.39635
15.1 5.28516
15.255 7.5058
15.41 12.8142
15.565 18.5762
15.72 29.4055
15.875 70.533
16.03 231.229
16.185 435.606
16.34 396.085
16.495 183.429
16.65 71.4397
16.805 49.2308
16.96 39.1198
17.115 22.5164
17.27 8.86119
17.425 4.13322
17.58 2.62294
17.735 1.74271
17.89 1.08555
18.045 -0.178142
18.2 0.362859
18.355 0.289964
18.51 -0.275474
18.665 0.634133
18.82 0.833613
18.975 2.23609
19.13 4.71617
19.285 15.867
19.44 48.829
19.595 81.5619
19.75 66.1052
19.905 26.8687
20.06 9.97513
20.215 5.69798
20.37 3.55389
20.525 1.81369
20.68 0.979986
20.835 0.582349
20.99 0.79991
21.145 -0.0431873
21.3 0.33023
21.455 0.797761
21.61 0.00197798
21.765 0.00263063
21.92 0.136055
22.075 -0.0731288
22.23 0.776226
22.385 2.42856
22.54 3.8369
22.695 2.05085
22.85 1.10765
23.005 0.894198
23.16 0.301745
23.315 0.60027
23.47 2.0375
23.625 3.72746
23.78 15.386
23.935 39.4143
24.09 51.2101
24.245 36.3911
24.4 16.0777
24.555 7.68257
24.71 7.70582
24.865 7.62124
25.02 11.6657
25.175 25.0579
25.33 73.3862
25.485 138.477
25.64 138.543
25.795 73.884
25.95 28.3376
26.105 14.3323
26.26 9.59157
26.415 9.05877
26.57 7.73854
26.725 8.66451
26.88 10.2988
27.035 10.3859
27.19 10.8443
27.345 14.2139
27.5 36.8277
27.655 111.116
27.81 195.899
27.965 187.501
28.12 104.437
28.275 40.8973
28.43 19.4148
28.585 13.716
28.74 10.0571
28.895 7.20606
29.05 5.54474
29.205 4.18635
29.36 2.62438
29.515 0.691479
29.67 -0.0825034
29.825 -0.0464863
29.98 0.866292
30.135 0.525226
30.29 1.30558
30.445 0.778049
30.6 1.40484
30.755 0.932625
30.91 4.20818
31.065 12.0378
31.22 17.7207
31.375 15.2053
31.53 7.92126
31.685 4.08268
31.84 3.63464
31.995 5.72033
32.15 16.5237
32.305 34.5425
32.46 41.0293
32.615 33.2955
32.77 21.3874
32.925 13.1354
33.08 6.79058
33.235 2.57187
33.39 0.583242
33.545 0.281509
33.7 0.187163
33.855 0.33479
34.01 1.15359
34.165 5.22015
34.32 7.31151
34.475 5.90798
34.63 2.83285
34.785 1.04071
34.94 0.458301
35.095 0.189603
35.25 0.390224
35.405 0.377332
35.56 0.153477
35.715 0.240772
35.87 -0.0390425
36.025 0.333614
36.18 1.15526
36.335 1.90229
36.49 1.98754
36.645 2.37952
36.8 6.00833
36.955 12.4759
37.11 18.1707
37.265 16.6278
37.42 10.7537
37.575 8.05663
37.73 11.0021
37.885 26.4362
38.04 48.169
38.195 54.5766
38.35 40.692
38.505 20.6425
38.66 8.92514
38.815 5.36284
38.97 4.16445
39.125 4.0327
39.28 4.3778
39.435 5.58022
39.59 12.6721
39.745 19.3855
39.9 18.7755
40.055 14.0509
40.21 7.37957
40.365 4.24607
40.52 2.34604
40.675 1.7434
40.83 0.580356
40.985 0.132366
41.14 -0.11929
41.295 0.129785
41.45 -0.128638
41.605 0.140054
41.76 0.22386
41.915 0.998552
42.07 3.20404
42.225 6.10958
42.38 6.98891
42.535 6.45054
42.69 5.5845
42.845 5.82535
43 14.3671
43.155 22.8221
43.31 26.8115
43.465 21.5876
43.62 13.5292
43.775 6.72503
43.93 2.90874
44.085 1.2818
44.24 1.21867
44.395 2.15115
44.55 4.4386
44.705 5.93488
44.86 5.68444
45.015 4.06926
45.17 1.9609
45.325 0.931945
45.48 0.278623
45.635 -0.0529025
45.79 0.0903953
45.945 0.00362551
46.1 0.452237
46.255 -0.0733268
46.41 1.37017
46.565 1.47495
46.72 1.75527
46.875 2.12864
47.03 2.81737
47.185 2.77934
47.34 3.90545
47.495 4.74304
47.65 9.45745
47.805 13.2725
47.96 13.52
48.115 9.80739
48.27 6.23098
48.425 2.9787
48.58 2.28249
48.735 2.76164
48.89 7.46724
49.045 16.2326
49.2 22.9452
49.355 22.8184
49.51 17.8018
49.665 10.5842
49.82 4.12452
49.975 1.39864
50.13 0.22161
50.285 0.0143074
50.44 0.644188
50.595 -0.13865
50.75 -0.0958684
50.905 0.700389
51.06 1.31739
51.215 3.95088
51.37 6.11186
51.525 5.2233
51.68 5.16689
51.835 5.59304
51.99 9.40708
52.145 12.2159
52.3 12.6235
52.455 10.1149
52.61 6.77898
52.765 3.83344
52.92 1.35027
53.075 0.247514
53.23 0.0476908
53.235 0