Folder: Cauchy/Data/KMK254/pXRD

Note: README.md
# Cauchy_Single
Jupyter Notebook for the fitting of magnetization curves to a single Cauchy distribution

File: KMK254.xy
'Id: "" Comment: "Integrate frame JR_1048_03_0001.sfrmwith cursor Wedge Cursor #14" Operator: "XRAY" Anode: "Mo" Scantype: "TwoTheta" TimePerStep: "240"
10.075 0
10.215 2.64918
10.355 -0.236429
10.495 0.735027
10.635 3.86059
10.775 8.17475
10.915 11.3206
11.055 6.87619
11.195 3.04784
11.335 -0.028843
11.475 0.0974406
11.615 0.870033
11.755 6.30417
11.895 11.0498
12.035 12.6553
12.175 7.54973
12.315 2.84584
12.455 1.16095
12.595 1.9118
12.735 1.63281
12.875 1.35348
13.015 3.6162
13.155 5.62685
13.295 10.7949
13.435 30.8265
13.575 89.7803
13.715 162.041
13.855 187.343
13.995 127.923
14.135 52.9294
14.275 21.8076
14.415 15.1726
14.555 11.7941
14.695 11.1048
14.835 8.47727
14.975 8.45029
15.115 11.4467
15.255 17.1311
15.395 24.8738
15.535 36.9487
15.675 54.8936
15.815 102.4
15.955 252.126
16.095 483.929
16.235 575.93
16.375 428.359
16.515 209.958
16.655 91.2093
16.795 61.7173
16.935 49.6314
17.075 31.6326
17.215 15.3544
17.355 6.58385
17.495 4.59429
17.635 2.35346
17.775 1.31705
17.915 1.18042
18.055 -0.0511881
18.195 0.320414
18.335 0.666797
18.475 0.991399
18.615 2.21033
18.755 2.36735
18.895 4.49652
19.035 9.15694
19.175 16.4884
19.315 39.9463
19.455 84.7434
19.595 109.273
19.735 85.6172
19.875 43.1947
20.015 16.1467
20.155 8.29986
20.295 4.93572
20.435 2.89281
20.575 1.09657
20.715 2.04199
20.855 1.39038
20.995 0.698378
21.135 0.0212062
21.275 0.144816
21.415 1.60492
21.555 0.265689
21.695 0.535188
21.835 0.8675
21.975 0.239778
22.115 1.17591
22.255 2.82648
22.395 4.25028
22.535 4.5007
22.675 3.12593
22.815 0.166671
22.955 1.50118
23.095 1.51073
23.235 2.22132
23.375 2.57099
23.515 5.43431
23.655 12.1942
23.795 30.771
23.935 56.826
24.075 65.3531
24.215 51.0057
24.355 29.0701
24.495 16.5843
24.635 13.4246
24.775 14.9115
24.915 19.1534
25.055 28.1361
25.195 58.4884
25.335 124.88
25.475 186.778
25.615 180.841
25.755 113.983
25.895 50.7673
26.035 23.2895
26.175 15.7173
26.315 13.5824
26.455 11.5659
26.595 13.6279
26.735 14.9333
26.875 17.6016
27.015 20.1678
27.155 22.0544
27.295 27.4606
27.435 50.4271
27.575 122.624
27.715 225.016
27.855 275.495
27.995 220.602
28.135 120.579
28.275 53.0018
28.415 26.1236
28.555 16.407
28.695 12.7907
28.835 9.52064
28.975 7.06388
29.115 5.81824
29.255 3.10597
29.395 1.82483
29.535 0.485689
29.675 0.0926604
29.815 -0.172386
29.955 0.705623
30.095 0.953906
30.235 0.980593
30.375 2.39549
30.515 1.98597
30.655 2.31932
30.795 3.81064
30.935 9.82417
31.075 19.7729
31.215 26.162
31.355 21.2245
31.495 14.3162
31.635 8.2448
31.775 6.78052
31.915 9.03322
32.055 18.8202
32.195 37.6502
32.335 54.1576
32.475 55.146
32.615 44.174
32.755 30.3718
32.895 18.8211
33.035 10.7977
33.175 5.35724
33.315 2.29996
33.455 1.00074
33.595 0.421793
33.735 -0.193959
33.875 2.22736
34.015 4.52018
34.155 8.75931
34.295 10.757
34.435 8.86997
34.575 5.12703
34.715 3.20525
34.855 1.17513
34.995 0.625848
35.135 -0.167075
35.275 1.43727
35.415 0.796895
35.555 0.279413
35.695 -0.0217851
35.835 -0.0725292
35.975 0.812194
36.115 1.04419
36.255 2.56872
36.395 2.90691
36.535 3.94377
36.675 5.40552
36.815 11.0918
36.955 19.8984
37.095 26.2243
37.235 24.2831
37.375 18.3981
37.515 14.394
37.655 15.7071
37.795 28.8661
37.935 54.4301
38.075 72.5485
38.215 70.3567
38.355 50.1881
38.495 26.883
38.635 13.1095
38.775 7.85438
38.915 6.50669
39.055 5.79561
39.195 5.96258
39.335 7.07272
39.475 12.2693
39.615 21.4513
39.755 28.1942
39.895 25.5397
40.035 18.3888
40.175 10.926
40.315 6.43487
40.455 3.74435
40.595 1.57242
40.735 0.910802
40.875 0.230873
41.015 0.0537656
41.155 0.294299
41.295 -0.176269
41.435 0.7075
41.575 0.911974
41.715 0.576696
41.855 1.87105
41.995 4.07873
42.135 8.14721
42.275 10.6787
42.415 10.9353
42.555 9.42163
42.695 8.81096
42.835 11.9684
42.975 21.9572
43.115 33.3883
43.255 37.4477
43.395 32.384
43.535 23.213
43.675 13.2037
43.815 6.24216
43.955 3.00402
44.095 1.84156
44.235 1.43818
44.375 2.48048
44.515 5.44326
44.655 8.84097
44.795 8.93221
44.935 7.14972
45.075 3.46764
45.215 1.74746
45.355 0.4204
45.495 0.144357
45.635 0.698367
45.775 0.188751
45.915 0.73346
46.055 0.671923
46.195 0.911137
46.335 2.2015
46.475 2.26127
46.615 2.71384
46.755 3.99323
46.895 4.32056
47.035 5.7516
47.175 5.66858
47.315 6.54795
47.455 8.42602
47.595 14.2936
47.735 19.9876
47.875 20.4929
48.015 17.755
48.155 12.0883
48.295 8.13954
48.435 5.84211
48.575 4.74623
48.715 5.68972
48.855 11.6778
48.995 22.8278
49.135 33.7451
49.275 35.1267
49.415 29.6769
49.555 19.6414
49.695 10.7746
49.835 4.88176
49.975 1.75278
50.115 0.716304
50.255 0.487765
50.395 0.0405801
50.535 0.242187
50.675 0.0080933
50.77 0